subjNum;startDate;startTime;trialType;trialIndex;exptId;decision;signal;signalerPath;signalerEndCoordinate;signalerEndItem;receiverPath;receiverEndCoordinate;receiverEndItem;signalerAchievedGoal;receiverAchievedGoal;totalUtility;decisionTime;actionTime;feedbackTime;responseWarningPopup
10;2021-05-19;22:08:00;expt;0;8;say;purple;N/A;(4,0);noChange;(5,7)(6,7)(7,7)(8,7)(8,8)(8,9);(8,9);purple square;false;false;0.00;4.924;4.091;7.371999999999999;false
10;2021-05-19;22:08:00;expt;1;23;do;N/A;(3,0)(2,0)(2,1)(2,2)(2,3)(2,4)(2,5)(2,6)(2,7)(2,8)(3,8)(4,8)(5,8);(5,8);red square;N/A;(4,7);noChange;true;false;0.00;8.819;7.095999999999998;9.550000000000002;false
10;2021-05-19;22:08:00;expt;2;36;say;red;N/A;(4,0);noChange;(4,8);(4,8);red square;false;false;0.00;0.726;1.4380000000000002;1.678;false
10;2021-05-19;22:08:00;expt;3;1;say;red;N/A;(4,0);noChange;(4,8)(3,8)(2,8)(1,8);(1,8);red square;false;false;0.00;0.768;6.2410000000000005;1.5079999999999991;false
10;2021-05-19;22:08:00;expt;4;15;say;red;N/A;(4,0);noChange;(3,7)(2,7)(2,6)(2,5)(2,4)(2,3)(2,2)(3,2)(4,2)(5,2);(5,2);red square;false;false;0.00;0.49;8.442;4.625;true
10;2021-05-19;22:08:00;expt;5;17;say;green;N/A;(4,0);noChange;(5,7)(6,7)(6,8)(6,9);(6,9);green square;false;true;0.20;5.57;2.587999999999999;7.745000000000001;false
subjNum;startDate;startTime;trialType;trialIndex;exptId;decision;signal;signalerPath;signalerEndCoordinate;signalerEndItem;receiverPath;receiverEndCoordinate;receiverEndItem;signalerAchievedGoal;receiverAchievedGoal;totalUtility;decisionTime;actionTime;feedbackTime;responseWarningPopup
pre-post;2021-05-19;22:14:17;expt;0;20;say;red;N/A;(4,0);noChange;(4,8)(4,9)(3,9)(2,9)(1,9)(0,9);(0,9);red square;false;false;0.00;1.848;3.923;2.8689999999999998;false
pre-post;2021-05-19;22:14:17;expt;1;2;do;N/A;(4,1)(4,2)(4,3);(4,3);red circle;N/A;(4,7);noChange;true;false;0.25;2.294;2.0210000000000004;3.0879999999999996;false
pre-post;2021-05-19;22:14:17;expt;2;35;say;triangle;N/A;(4,0);noChange;(3,7)(3,6);(3,6);green triangle;false;false;0.15;2.234;5.229;3.5460000000000003;false
subjNum;startDate;startTime;trialType;trialIndex;exptId;decision;signal;signalerPath;signalerEndCoordinate;signalerEndItem;receiverPath;receiverEndCoordinate;receiverEndItem;signalerAchievedGoal;receiverAchievedGoal;totalUtility;decisionTime;actionTime;feedbackTime;responseWarningPopup
pre-post;2021-05-20;12:44:45;expt;0;24;say;square;N/A;(4,0);noChange;(5,7)(6,7)(7,7)(8,7);(8,7);red square;false;true;0.20;11.656;3.0279999999999987;12.97;false
pre-post;2021-05-20;12:44:45;expt;1;13;do;N/A;(3,0)(2,0)(1,0)(1,1)(1,2)(1,3)(1,4)(1,5)(1,6)(1,7)(1,8)(1,9);(1,9);purple triangle;N/A;(4,7);noChange;true;false;0.00;9.728;6.549000000000001;13.420999999999998;false
pre-post;2021-05-20;12:44:45;expt;2;38;say;circle;N/A;(4,0);noChange;(4,8)(3,8)(2,8)(1,8);(1,8);red circle;false;true;0.20;5.239;4.03;7.783;false
pre-post;2021-05-20;12:44:45;expt;3;18;do;N/A;(3,0)(2,0)(2,1)(2,2)(2,3)(2,4)(2,5)(2,6)(2,7)(2,8)(2,9)(3,9)(4,9)(5,9)(6,9)(7,9)(8,9);(8,9);red square;N/A;(4,7);noChange;true;false;0.00;13.143;9.064999999999998;14.400000000000002;false
pre-post;2021-05-20;12:44:45;expt;4;34;say;red;N/A;(4,0);noChange;(3,7)(3,8)(3,9);(3,9);red circle;false;true;0.25;7.736;6.426000000000001;9.675999999999998;false
pre-post;2021-05-20;12:44:45;expt;5;6;do;N/A;(4,1)(4,2)(4,3);(4,3);red square;N/A;(4,7);noChange;true;false;0.50;4.396;2.016;5.31;false
pre-post;2021-05-20;12:44:45;expt;6;5;say;triangle;N/A;(4,0);noChange;(4,6)(4,5)(4,4)(4,3);(4,3);red triangle;false;true;0.70;5.1;3.0229999999999997;7.739000000000001;false
pre-post;2021-05-20;12:44:45;expt;7;26;say;circle;N/A;(4,0);noChange;(4,8)(3,8)(2,8)(1,8);(1,8);red circle;false;true;0.90;10.916;3.67;12.208;false
pre-post;2021-05-20;12:44:45;expt;8;19;do;N/A;(3,0)(2,0)(2,1)(2,2)(2,3)(2,4)(2,5)(2,6)(2,7)(2,8)(2,9)(3,9)(4,9)(5,9)(6,9)(7,9)(8,9);(8,9);red square;N/A;(4,7);noChange;true;false;0.45;27.25;9.07;28.689;false
pre-post;2021-05-20;12:44:45;expt;9;8;say;square;N/A;(4,0);noChange;(5,7)(6,7)(7,7)(8,7)(8,6);(8,6);purple square;false;true;0.60;10.357;4.456000000000001;11.511;false
pre-post;2021-05-20;12:44:45;expt;10;1;say;purple;N/A;(4,0);noChange;(4,6)(4,5)(4,4)(4,3);(4,3);purple circle;false;true;0.80;6.719;3.554999999999999;9.257000000000001;false
pre-post;2021-05-20;12:44:45;expt;11;9;do;N/A;(4,1)(4,2)(3,2)(2,2)(2,3)(2,4)(2,5)(2,6)(3,6)(4,6)(5,6)(6,6)(7,6)(8,6);(8,6);purple square;N/A;(4,7);noChange;true;false;0.50;13.917;7.555999999999999;15.06;false
pre-post;2021-05-20;12:44:45;expt;12;2;do;N/A;(4,1)(4,2)(4,3)(5,3)(6,3);(6,3);purple square;N/A;(4,7);noChange;true;false;0.65;4.063;3.0170000000000003;5.108999999999999;false
pre-post;2021-05-20;12:44:45;expt;13;4;do;N/A;(4,1)(4,2)(4,3);(4,3);red triangle;N/A;(4,7);noChange;true;false;0.90;3.067;2.0149999999999997;3.9330000000000007;false
pre-post;2021-05-20;12:44:45;expt;14;39;do;N/A;(3,0)(2,0)(1,0)(1,1)(1,2)(1,3)(1,4)(1,5)(1,6)(1,7)(1,8);(1,8);red circle;N/A;(4,7);noChange;true;false;0.75;16.659;6.0440000000000005;24.126;false
pre-post;2021-05-20;12:44:45;expt;15;15;say;triangle;N/A;(4,0);noChange;(5,7)(6,7)(7,7)(7,6)(7,5)(7,4)(7,3);(7,3);green triangle;false;false;0.40;10.9;5.2879999999999985;14.340000000000002;false
pre-post;2021-05-20;12:44:45;expt;16;36;say;circle;N/A;(4,0);noChange;(5,7)(6,7)(6,8);(6,8);red circle;false;true;0.65;4.962;5.710000000000001;6.007;false
pre-post;2021-05-20;12:44:45;expt;17;17;say;square;N/A;(4,0);noChange;(5,7)(6,7);(6,7);green square;false;true;0.95;13.232;6.446999999999999;15.481000000000002;false
pre-post;2021-05-20;12:44:45;expt;18;0;do;N/A;(4,1)(4,2)(4,3);(4,3);purple circle;N/A;(4,7);noChange;true;false;1.20;11.704;2.0139999999999993;13.767000000000001;false
pre-post;2021-05-20;12:44:45;expt;19;22;say;red;N/A;(4,0);noChange;(5,7)(6,7)(7,7);(7,7);red square;false;true;1.45;8.86;4.933;9.838000000000001;false
pre-post;2021-05-20;12:44:45;expt;20;23;say;red;N/A;(4,0);noChange;(5,7)(6,7)(7,7);(7,7);red square;false;true;1.70;59.962;4.224000000000004;61.72399999999999;false
pre-post;2021-05-20;12:44:45;expt;21;35;say;red;N/A;(4,0);noChange;(5,7)(6,7)(7,7)(7,6)(7,5)(7,4);(7,4);red square;false;false;1.40;11.887;3.974;13.189;false
pre-post;2021-05-20;12:44:45;expt;22;30;say;red;N/A;(4,0);noChange;(4,6);(4,6);red circle;false;true;1.75;5.153;5.484000000000001;6.6659999999999995;false
pre-post;2021-05-20;12:44:45;expt;23;31;say;red;N/A;(4,0);noChange;(5,7)(6,7)(6,6)(6,5)(6,4)(6,3);(6,3);red triangle;false;false;1.45;3.734;3.992;5.434;false
pre-post;2021-05-20;12:44:45;expt;24;33;say;triangle;N/A;(4,0);noChange;(3,7)(3,6);(3,6);purple triangle;false;true;1.75;46.023;5.388999999999996;47.786;false
pre-post;2021-05-20;12:44:45;expt;25;16;say;square;N/A;(4,0);noChange;(5,7)(6,7);(6,7);green square;false;true;2.05;3.629;2.728;4.815999999999999;false
subjNum;startDate;startTime;trialType;trialIndex;exptId;decision;signal;signalerPath;signalerEndCoordinate;signalerEndItem;receiverPath;receiverEndCoordinate;receiverEndItem;signalerAchievedGoal;receiverAchievedGoal;totalUtility;decisionTime;actionTime;feedbackTime;responseWarningPopup
23;2021-05-20;23:54:39;expt;0;3;say;square;N/A;(4,0);noChange;(4,6)(4,5)(4,4)(4,3)(5,3)(6,3);(6,3);purple square;false;true;0.10;8.162;7.138999999999999;9.606000000000002;false
23;2021-05-20;23:54:39;expt;1;38;say;circle;N/A;(4,0);noChange;(4,8)(3,8)(2,8)(1,8);(1,8);red circle;false;true;0.30;9.988;5.384;11.244;false
23;2021-05-20;23:54:39;expt;2;19;say;red;N/A;(4,0);noChange;(4,8)(4,9)(5,9)(6,9)(7,9)(8,9);(8,9);red square;false;true;0.40;25.141;7.401000000000003;27.314;false
23;2021-05-20;23:54:39;expt;3;36;say;circle;N/A;(4,0);noChange;(5,7)(6,7)(6,8);(6,8);red circle;false;true;0.65;9.875;2.3390000000000004;10.946;false
23;2021-05-20;23:54:39;expt;4;10;say;square;N/A;(4,0);noChange;(4,8)(4,9)(5,9)(6,9);(6,9);green square;false;true;0.85;16.851;3.051000000000002;18.673;false
23;2021-05-20;23:54:39;expt;5;18;say;red;N/A;(4,0);noChange;(4,8)(4,9)(5,9)(6,9)(7,9)(8,9);(8,9);red square;false;true;0.95;5.635;5.9559999999999995;6.958;false
23;2021-05-20;23:54:39;expt;6;39;say;red;N/A;(4,0);noChange;(4,8)(3,8)(2,8)(1,8);(1,8);red circle;false;true;1.15;9.008;3.155000000000001;10.050999999999998;false
23;2021-05-20;23:54:39;expt;7;26;say;circle;N/A;(4,0);noChange;(4,8)(3,8)(2,8)(1,8);(1,8);red circle;false;true;1.35;17.043;3.9700000000000024;17.955999999999996;false
subjNum;startDate;startTime;trialType;trialIndex;exptId;decision;signal;signalerPath;signalerEndCoordinate;signalerEndItem;receiverPath;receiverEndCoordinate;receiverEndItem;signalerAchievedGoal;receiverAchievedGoal;totalUtility;decisionTime;actionTime;feedbackTime;responseWarningPopup
26;2021-05-21;21:15:11;expt;0;26;say;circle;N/A;(4,0);noChange;(4,8)(3,8)(2,8)(1,8);(1,8);red circle;false;true;0.20;4.976;3.5680000000000005;9.428;false
26;2021-05-21;21:15:11;expt;1;10;say;square;N/A;(4,0);noChange;(4,8)(4,9)(5,9)(6,9);(6,9);green square;false;true;0.40;3.431;5.835;5.396999999999999;false
26;2021-05-21;21:15:11;expt;2;27;say;circle;N/A;(4,0);noChange;(4,8)(3,8)(2,8)(1,8);(1,8);red circle;false;true;0.60;6.057;5.4190000000000005;7.398;false
26;2021-05-21;21:15:11;expt;3;38;say;circle;N/A;(4,0);noChange;(4,8)(3,8)(2,8)(1,8);(1,8);red circle;false;true;0.80;3.84;4.817;5.904;false
26;2021-05-21;21:15:11;expt;4;15;say;triangle;N/A;(4,0);noChange;(5,7)(6,7)(7,7)(7,6)(7,5)(7,4)(7,3);(7,3);green triangle;false;false;0.45;11.365;7.249999999999998;13.958;false
26;2021-05-21;21:15:11;expt;5;7;say;square;N/A;(4,0);noChange;(4,6)(4,5)(4,4)(4,3);(4,3);red square;false;true;0.65;3.357;2.776;7.473000000000001;false
26;2021-05-21;21:15:11;expt;6;0;do;N/A;(4,1)(4,2)(4,3);(4,3);purple circle;N/A;(4,7);noChange;true;false;0.90;3.779;2.027;5.817;false
26;2021-05-21;21:15:11;expt;7;23;say;red;N/A;(4,0);noChange;(5,7)(6,7)(7,7);(7,7);red square;false;true;1.15;4.742;3.1580000000000004;6.944999999999999;false
26;2021-05-21;21:15:11;expt;8;6;do;N/A;(4,1)(4,2)(4,3);(4,3);red square;N/A;(4,7);noChange;true;false;1.40;3.418;2.029;7.300000000000001;false
26;2021-05-21;21:15:11;expt;9;24;say;square;N/A;(4,0);noChange;(5,7)(6,7)(7,7)(8,7);(8,7);red square;false;true;1.60;4.674;4.271999999999999;7.274;false
26;2021-05-21;21:15:11;expt;10;35;say;red;N/A;(4,0);noChange;(5,7)(6,7)(7,7)(7,6)(7,5)(7,4);(7,4);red square;false;false;1.30;3.061;11.327;4.912000000000001;false
26;2021-05-21;21:15:11;expt;11;39;say;red;N/A;(4,0);noChange;(4,8)(3,8)(2,8)(1,8);(1,8);red circle;false;true;1.50;7.021;2.7039999999999997;11.486;false
26;2021-05-21;21:15:11;expt;12;32;say;purple;N/A;(4,0);noChange;(4,6)(3,6);(3,6);purple triangle;false;true;1.80;4.352;1.7569999999999997;5.511;false
26;2021-05-21;21:15:11;expt;13;31;say;red;N/A;(4,0);noChange;(5,7)(6,7)(6,6)(6,5)(6,4)(6,3);(6,3);red triangle;false;false;1.50;1.887;4.122;3.0730000000000004;false
26;2021-05-21;21:15:11;expt;14;29;say;red;N/A;(4,0);noChange;(5,7)(6,7)(7,7)(8,7)(8,8);(8,8);red square;false;true;1.65;3.851;6.598999999999999;5.674;false
26;2021-05-21;21:15:11;expt;15;17;say;square;N/A;(4,0);noChange;(5,7)(6,7);(6,7);green square;false;true;1.95;3.998;1.593;5.031;false
26;2021-05-21;21:15:11;expt;16;18;say;square;N/A;(4,0);noChange;(4,8)(4,9)(5,9)(6,9)(7,9)(8,9);(8,9);red square;false;true;2.05;11.183;3.646000000000001;14.146999999999998;false
26;2021-05-21;21:15:11;expt;17;8;say;square;N/A;(4,0);noChange;(5,7)(6,7)(7,7)(8,7)(8,6);(8,6);purple square;false;true;2.20;3.449;3.096;5.9;false
26;2021-05-21;21:15:11;expt;18;11;say;square;N/A;(4,0);noChange;(5,7)(6,7)(6,8)(6,9);(6,9);green square;false;true;2.40;3.711;3.467;5.603;false
26;2021-05-21;21:15:11;expt;19;37;say;circle;N/A;(4,0);noChange;(5,7)(6,7)(7,7)(7,6)(7,5)(7,4)(7,3);(7,3);green circle;false;false;2.05;9.373;4.795;12.697000000000001;false
26;2021-05-21;21:15:11;expt;20;36;say;circle;N/A;(4,0);noChange;(5,7)(6,7)(6,8);(6,8);red circle;false;true;2.30;3.15;8.555;4.693;false
26;2021-05-21;21:15:11;expt;21;14;say;triangle;N/A;(4,0);noChange;(4,8)(4,9)(5,9)(6,9)(7,9);(7,9);red triangle;false;true;2.45;4.656;4.1000000000000005;9.675;false
26;2021-05-21;21:15:11;expt;22;30;say;red;N/A;(4,0);noChange;(4,6);(4,6);red circle;false;true;2.80;3.899;3.5650000000000004;5.104;false
26;2021-05-21;21:15:11;expt;23;13;say;purple;N/A;(4,0);noChange;(5,7)(5,6)(5,5)(5,4)(5,3);(5,3);purple circle;false;false;2.55;4.667;3.5860000000000003;8.892999999999999;false
26;2021-05-21;21:15:11;expt;24;22;say;red;N/A;(4,0);noChange;(5,7)(6,7)(7,7);(7,7);red square;false;true;2.80;7.778;4.857;10.762999999999998;false
26;2021-05-21;21:15:11;expt;25;2;do;N/A;(4,1)(4,2)(4,3)(5,3)(6,3);(6,3);purple square;N/A;(4,7);noChange;true;false;2.95;3.901;3.0520000000000005;18.22;false
26;2021-05-21;21:15:11;expt;26;16;say;square;N/A;(4,0);noChange;(5,7)(6,7);(6,7);green square;false;true;3.25;4.201;2.104;5.774;false
subjNum;startDate;startTime;trialType;trialIndex;exptId;decision;signal;signalerPath;signalerEndCoordinate;signalerEndItem;receiverPath;receiverEndCoordinate;receiverEndItem;signalerAchievedGoal;receiverAchievedGoal;totalUtility;decisionTime;actionTime;feedbackTime;responseWarningPopup
29;2021-05-23;19:01:28;expt;0;39;say;red;N/A;(4,0);noChange;(4,8)(3,8)(2,8)(1,8);(1,8);red circle;false;true;0.20;8.506;2.5389999999999997;9.593;false
29;2021-05-23;19:01:28;expt;1;8;say;purple;N/A;(4,0);noChange;(3,7)(2,7)(1,7)(1,8);(1,8);purple triangle;false;false;0.00;10.535;3.4000000000000004;11.68;false
29;2021-05-23;19:01:28;expt;2;6;do;N/A;(4,1)(4,2)(4,3);(4,3);red square;N/A;(4,7);noChange;true;false;0.25;2.96;2.011;3.894;false
29;2021-05-23;19:01:28;expt;3;28;say;red;N/A;(4,0);noChange;(5,7)(6,7)(7,7)(8,7)(8,8);(8,8);red square;false;true;0.40;4.861;4.424;5.7540000000000004;false
29;2021-05-23;19:01:28;expt;4;25;say;red;N/A;(4,0);noChange;(5,7)(6,7)(7,7)(8,7);(8,7);red square;false;true;0.60;10.755;2.7529999999999983;12.493000000000002;false
29;2021-05-23;19:01:28;expt;5;0;do;N/A;(4,1)(4,2)(4,3);(4,3);purple circle;N/A;(4,7);noChange;true;false;0.85;5.839;2.018;6.7299999999999995;false
29;2021-05-23;19:01:28;expt;6;36;say;red;N/A;(4,0);noChange;(4,6)(5,6)(6,6)(7,6)(8,6);(8,6);red triangle;false;false;0.60;5.841;5.416999999999999;6.971000000000001;false
29;2021-05-23;19:01:28;expt;7;30;say;circle;N/A;(4,0);noChange;(4,6)(3,6)(2,6)(1,6);(1,6);green circle;false;false;0.40;26.654;2.8939999999999984;27.561;false
29;2021-05-23;19:01:28;expt;8;7;do;N/A;(4,1)(4,2)(3,2)(2,2)(2,3)(3,3)(4,3);(4,3);red square;N/A;(4,7);noChange;true;false;0.45;3.346;4.031;4.179000000000001;false
29;2021-05-23;19:01:28;expt;9;23;say;red;N/A;(4,0);noChange;(5,7)(6,7)(7,7);(7,7);red square;false;true;0.70;12.227;3.296999999999999;13.375000000000002;false
29;2021-05-23;19:01:28;expt;10;27;say;red;N/A;(4,0);noChange;(4,8)(3,8)(2,8)(1,8);(1,8);red circle;false;true;0.90;4.424;6.1819999999999995;5.398000000000001;false
29;2021-05-23;19:01:28;expt;11;33;say;purple;N/A;(4,0);noChange;(4,6)(4,5)(4,4)(5,4);(5,4);purple square;false;false;0.70;15.114;2.9659999999999975;15.813000000000002;false
29;2021-05-23;19:01:28;expt;12;19;say;red;N/A;(4,0);noChange;(4,8)(4,9)(5,9)(6,9)(7,9)(8,9);(8,9);red square;false;true;0.80;4.768;6.113;6.236999999999999;false
29;2021-05-23;19:01:28;expt;13;32;say;purple;N/A;(4,0);noChange;(4,6)(3,6);(3,6);purple triangle;false;true;1.10;8.77;6.728;10.807;false
29;2021-05-23;19:01:28;expt;14;4;do;N/A;(4,1)(4,2)(4,3);(4,3);red triangle;N/A;(4,7);noChange;true;false;1.35;2.082;2.013;2.934;false
29;2021-05-23;19:01:28;expt;15;2;do;N/A;(4,1)(4,2)(4,3)(5,3)(6,3);(6,3);purple square;N/A;(4,7);noChange;true;false;1.50;2.111;3.0189999999999997;2.948;false
29;2021-05-23;19:01:28;expt;16;18;say;red;N/A;(4,0);noChange;(4,8)(4,9)(5,9)(6,9)(7,9)(8,9);(8,9);red square;false;true;1.60;8.727;4.289;9.867;false
29;2021-05-23;19:01:28;expt;17;16;say;green;N/A;(4,0);noChange;(5,7)(6,7);(6,7);green square;false;true;1.90;5.337;1.5430000000000001;6.391;false
29;2021-05-23;19:01:28;expt;18;15;say;red;N/A;(4,0);noChange;(4,8)(4,9)(5,9)(6,9)(7,9);(7,9);red triangle;false;true;2.05;4.769;4.496;5.461;false
29;2021-05-23;19:01:28;expt;19;26;say;red;N/A;(4,0);noChange;(4,8)(3,8)(2,8)(1,8);(1,8);red circle;false;true;2.25;3.026;5.814;3.8200000000000003;false
29;2021-05-23;19:01:28;expt;20;29;say;red;N/A;(4,0);noChange;(5,7)(6,7)(7,7)(8,7)(8,8);(8,8);red square;false;true;2.40;18.737;3.7680000000000007;19.615;false
29;2021-05-23;19:01:28;expt;21;21;say;red;N/A;(4,0);noChange;(4,8)(3,8)(2,8);(2,8);red square;false;true;2.65;4.5;7.2669999999999995;5.498000000000001;false
29;2021-05-23;19:01:28;expt;22;9;say;purple;N/A;(4,0);noChange;(4,6)(5,6)(6,6)(7,6)(8,6);(8,6);purple square;false;true;2.80;18.004;5.078999999999997;20.805000000000003;false
29;2021-05-23;19:01:28;expt;23;13;say;purple;N/A;(4,0);noChange;(5,7)(5,6)(5,5)(5,4)(5,3);(5,3);purple circle;false;false;2.55;7.811;3.0600000000000005;8.677999999999999;false
29;2021-05-23;19:01:28;expt;24;37;say;red;N/A;(4,0);noChange;(4,8)(5,8)(6,8);(6,8);red circle;false;true;2.80;6.37;3.4080000000000004;7.12;false
subjNum;startDate;startTime;trialType;trialIndex;exptId;decision;signal;signalerPath;signalerEndCoordinate;signalerEndItem;receiverPath;receiverEndCoordinate;receiverEndItem;signalerAchievedGoal;receiverAchievedGoal;totalUtility;decisionTime;actionTime;feedbackTime;responseWarningPopup
31;2021-05-24;07:34:22;expt;0;15;say;triangle;N/A;(4,0);noChange;(5,7)(6,7)(7,7)(7,6)(7,5)(7,4)(7,3);(7,3);green triangle;false;false;0.00;30.347;4.905999999999999;33.954;false
31;2021-05-24;07:34:22;expt;1;4;do;N/A;(4,1)(4,2)(4,3);(4,3);red triangle;N/A;(4,7);noChange;true;false;0.25;2.902;2.0409999999999995;3.854;false
31;2021-05-24;07:34:22;expt;2;5;say;triangle;N/A;(4,0);noChange;(4,6)(4,5)(4,4)(4,3);(4,3);red triangle;false;true;0.45;13.256;3.9130000000000003;14.858999999999998;false
31;2021-05-24;07:34:22;expt;3;28;say;square;N/A;(4,0);noChange;(5,7)(6,7)(7,7)(8,7)(8,8);(8,8);red square;false;true;0.60;12.736;4.792999999999999;16.672;false
31;2021-05-24;07:34:22;expt;4;18;say;square;N/A;(4,0);noChange;(4,8)(4,9)(5,9)(6,9)(7,9)(8,9);(8,9);red square;false;true;0.70;23.313;4.303000000000001;25.756999999999998;false
31;2021-05-24;07:34:22;expt;5;19;say;square;N/A;(4,0);noChange;(4,8)(4,9)(5,9)(6,9)(7,9)(8,9);(8,9);red square;false;true;0.80;23.417;4.792999999999999;25.568;false
31;2021-05-24;07:34:22;expt;6;12;say;purple;N/A;(4,0);noChange;(3,7)(2,7)(1,7)(1,8)(1,9);(1,9);purple triangle;false;true;0.95;6.137;4.925;7.670000000000001;false
31;2021-05-24;07:34:22;expt;7;8;say;square;N/A;(4,0);noChange;(5,7)(6,7)(7,7)(8,7)(8,6);(8,6);purple square;false;true;1.10;7.083;3.744999999999999;7.787000000000001;false
31;2021-05-24;07:34:22;expt;8;2;do;N/A;(4,1)(4,2)(4,3)(5,3)(6,3);(6,3);purple square;N/A;(4,7);noChange;true;false;1.25;4.305;3.0330000000000004;17.261;false
31;2021-05-24;07:34:22;expt;9;14;say;triangle;N/A;(4,0);noChange;(4,8)(4,9)(5,9)(6,9)(7,9);(7,9);red triangle;false;true;1.40;8.557;3.4879999999999995;10.559000000000001;false
subjNum;startDate;startTime;trialType;trialIndex;exptId;decision;signal;signalerPath;signalerEndCoordinate;signalerEndItem;receiverPath;receiverEndCoordinate;receiverEndItem;signalerAchievedGoal;receiverAchievedGoal;totalUtility;decisionTime;actionTime;feedbackTime;responseWarningPopup
33;2021-05-24;09:41:42;expt;0;3;say;square;N/A;(4,0);noChange;(4,6)(4,5)(4,4)(4,3)(5,3)(6,3);(6,3);purple square;false;true;0.10;3.806;4.297;4.639;false
33;2021-05-24;09:41:42;expt;1;36;say;circle;N/A;(4,0);noChange;(5,7)(6,7)(6,8);(6,8);red circle;false;true;0.35;2.96;2.0250000000000004;3.8409999999999993;false
33;2021-05-24;09:41:42;expt;2;21;say;square;N/A;(4,0);noChange;(4,8)(3,8)(2,8);(2,8);red square;false;true;0.60;5.446;2.1210000000000004;6.193;false
33;2021-05-24;09:41:42;expt;3;24;say;square;N/A;(4,0);noChange;(5,7)(6,7)(7,7)(8,7);(8,7);red square;false;true;0.80;2.356;3.708;2.9529999999999994;false
33;2021-05-24;09:41:42;expt;4;4;do;N/A;(4,1)(4,2)(4,3);(4,3);red triangle;N/A;(4,7);noChange;true;false;1.05;2.263;2.0149999999999997;2.923;false
33;2021-05-24;09:41:42;expt;5;25;say;square;N/A;(4,0);noChange;(4,6)(4,5)(4,4)(4,3)(5,3);(5,3);green square;false;false;0.80;1.574;6.654;2.4369999999999994;false
33;2021-05-24;09:41:42;expt;6;26;say;circle;N/A;(4,0);noChange;(4,8)(3,8)(2,8)(1,8);(1,8);red circle;false;true;1.00;3.337;3.5209999999999995;3.9840000000000004;false
33;2021-05-24;09:41:42;expt;7;9;say;square;N/A;(4,0);noChange;(4,6)(4,5)(4,4)(4,3);(4,3);green square;false;false;0.80;6.803;3.2670000000000003;7.672;false
33;2021-05-24;09:41:42;expt;8;7;say;square;N/A;(4,0);noChange;(4,6)(4,5)(4,4)(4,3);(4,3);red square;false;true;1.00;4.303;4.170000000000001;5.282999999999999;false
33;2021-05-24;09:41:42;expt;9;10;say;square;N/A;(4,0);noChange;(4,8)(4,9)(5,9)(6,9);(6,9);green square;false;true;1.20;2.637;3.964;3.48;false
33;2021-05-24;09:41:42;expt;10;32;say;purple;N/A;(4,0);noChange;(4,6)(3,6);(3,6);purple triangle;false;true;1.50;2.605;1.8969999999999998;3.1350000000000002;false
33;2021-05-24;09:41:42;expt;11;0;do;N/A;(4,1)(4,2)(4,3);(4,3);purple circle;N/A;(4,7);noChange;true;false;1.75;1.991;2.0129999999999995;3.6150000000000007;false
33;2021-05-24;09:41:42;expt;12;22;say;red;N/A;(4,0);noChange;(5,7)(6,7)(7,7);(7,7);red square;false;true;2.00;4.589;2.252;5.8020000000000005;false
33;2021-05-24;09:41:42;expt;13;5;say;triangle;N/A;(4,0);noChange;(4,6)(4,5)(4,4)(4,3);(4,3);red triangle;false;true;2.20;3.479;3.5489999999999995;4.323;false
33;2021-05-24;09:41:42;expt;14;29;say;red;N/A;(4,0);noChange;(5,7)(6,7)(7,7)(8,7)(8,8);(8,8);red square;false;true;2.35;5.436;4.308999999999999;8.052000000000001;false
33;2021-05-24;09:41:42;expt;15;15;say;triangle;N/A;(4,0);noChange;(5,7)(6,7)(7,7)(7,6)(7,5)(7,4)(7,3);(7,3);green triangle;false;false;2.00;5.708;4.093999999999999;6.436;false
33;2021-05-24;09:41:42;expt;16;27;say;red;N/A;(4,0);noChange;(4,8)(3,8)(2,8)(1,8);(1,8);red circle;false;true;2.20;4.656;2.987;5.443999999999999;false
33;2021-05-24;09:41:42;expt;17;20;say;square;N/A;(4,0);noChange;(4,8)(3,8)(2,8);(2,8);red square;false;true;2.45;4.035;3.2359999999999998;4.609;false
33;2021-05-24;09:41:42;expt;18;14;say;triangle;N/A;(4,0);noChange;(4,8)(4,9)(5,9)(6,9)(7,9);(7,9);red triangle;false;true;2.60;3.208;3.1709999999999994;4.422000000000001;false
33;2021-05-24;09:41:42;expt;19;39;say;red;N/A;(4,0);noChange;(4,8)(3,8)(2,8)(1,8);(1,8);red circle;false;true;2.80;6.245;3.9609999999999994;6.953;false
33;2021-05-24;09:41:42;expt;20;18;say;square;N/A;(4,0);noChange;(4,8)(4,9)(5,9)(6,9)(7,9)(8,9);(8,9);red square;false;true;2.90;4.038;4.734999999999999;4.562000000000001;false
33;2021-05-24;09:41:42;expt;21;13;say;purple;N/A;(4,0);noChange;(5,7)(5,6)(5,5)(5,4)(5,3);(5,3);purple circle;false;false;2.65;6.149;3.3519999999999994;7.029000000000001;false
33;2021-05-24;09:41:42;expt;22;2;do;N/A;(4,1)(4,2)(4,3)(5,3)(6,3);(6,3);purple square;N/A;(4,7);noChange;true;false;2.80;2.267;3.022;2.9010000000000002;false
33;2021-05-24;09:41:42;expt;23;30;say;red;N/A;(4,0);noChange;(4,6);(4,6);red circle;false;true;3.15;2.136;1.7269999999999999;3.033;false
33;2021-05-24;09:41:42;expt;24;12;say;purple;N/A;(4,0);noChange;(3,7)(2,7)(1,7)(1,8)(1,9);(1,9);purple triangle;false;true;3.30;5.22;3.4479999999999995;6.082;false
33;2021-05-24;09:41:42;expt;25;16;say;square;N/A;(4,0);noChange;(5,7)(6,7);(6,7);green square;false;true;3.60;4.392;4.826;4.988;false
33;2021-05-24;09:41:42;expt;26;33;say;triangle;N/A;(4,0);noChange;(3,7)(3,6);(3,6);purple triangle;false;true;3.90;4.298;1.8819999999999997;4.906000000000001;false
33;2021-05-24;09:41:42;expt;27;1;say;purple;N/A;(4,0);noChange;(4,6)(4,5)(4,4)(4,3);(4,3);purple circle;false;true;4.10;2.644;2.856;3.271;false
33;2021-05-24;09:41:42;expt;28;38;say;circle;N/A;(4,0);noChange;(4,8)(3,8)(2,8)(1,8);(1,8);red circle;false;true;4.30;4.534;3.519000000000001;5.262;false
33;2021-05-24;09:41:42;expt;29;19;say;square;N/A;(4,0);noChange;(4,8)(4,9)(5,9)(6,9)(7,9)(8,9);(8,9);red square;false;true;4.40;6.133;7.345999999999999;6.705000000000001;false
33;2021-05-24;09:41:42;expt;30;28;say;square;N/A;(4,0);noChange;(5,7)(6,7)(7,7)(8,7)(8,8);(8,8);red square;false;true;4.55;4.661;4.537000000000001;5.252999999999998;false
33;2021-05-24;09:41:42;expt;31;11;say;square;N/A;(4,0);noChange;(5,7)(6,7)(6,8)(6,9);(6,9);green square;false;true;4.75;3.361;3.0659999999999994;4.014000000000001;false
33;2021-05-24;09:41:42;expt;32;37;say;red;N/A;(4,0);noChange;(4,8)(5,8)(6,8);(6,8);red circle;false;true;5.00;5.299;5.014;32.41;false
subjNum;startDate;startTime;trialType;trialIndex;exptId;decision;signal;signalerPath;signalerEndCoordinate;signalerEndItem;receiverPath;receiverEndCoordinate;receiverEndItem;signalerAchievedGoal;receiverAchievedGoal;totalUtility;decisionTime;actionTime;feedbackTime;responseWarningPopup
pre-post;2021-05-24;17:55:39;expt;0;28;say;square;N/A;(4,0);noChange;(5,7)(6,7)(7,7)(8,7)(8,8);(8,8);red square;false;true;0.15;7.025;3.622;7.916;false
pre-post;2021-05-24;17:55:39;expt;1;35;say;red;N/A;(4,0);noChange;(5,7)(6,7)(7,7)(7,6)(7,5)(7,4);(7,4);red square;false;false;0.00;3.992;7.989999999999999;8.332;false
pre-post;2021-05-24;17:55:39;expt;2;37;say;circle;N/A;(4,0);noChange;(5,7)(6,7)(7,7)(7,6)(7,5)(7,4)(7,3);(7,3);green circle;false;false;0.00;3.732;4.119;5.2620000000000005;false
pre-post;2021-05-24;17:55:39;expt;3;22;say;red;N/A;(4,0);noChange;(5,7)(6,7)(7,7);(7,7);red square;false;true;0.25;7.861;2.3709999999999996;8.719000000000001;false
pre-post;2021-05-24;17:55:39;expt;4;5;say;triangle;N/A;(4,0);noChange;(4,6)(4,5)(4,4)(4,3);(4,3);red triangle;false;true;0.45;3.621;3.23;5.026999999999999;false
pre-post;2021-05-24;17:55:39;expt;5;23;do;N/A;(4,1)(4,2)(3,2)(2,2)(2,3)(2,4)(2,5)(2,6)(2,7)(3,7)(4,7)(5,7)(6,7)(7,7);(7,7);red square;N/A;(4,7);noChange;true;false;0.15;7.208;7.539999999999999;8.735;false
pre-post;2021-05-24;17:55:39;expt;6;30;say;red;N/A;(4,0);noChange;(4,6);(4,6);red circle;false;true;0.50;7.829;1.0919999999999996;9.022000000000002;false
pre-post;2021-05-24;17:55:39;expt;7;1;say;purple;N/A;(4,0);noChange;(4,6)(4,5)(4,4)(4,3);(4,3);purple circle;false;true;0.70;3.295;2.561;4.143;false
pre-post;2021-05-24;17:55:39;expt;8;29;do;N/A;(3,0)(2,0)(2,1)(2,2)(2,3)(2,4)(2,5)(2,6)(2,7)(2,8)(3,8)(4,8)(5,8)(6,8)(7,8)(8,8);(8,8);red square;N/A;(4,7);noChange;true;false;0.30;8.279;8.546;8.867;false
pre-post;2021-05-24;17:55:39;expt;9;34;say;red;N/A;(4,0);noChange;(3,7)(3,8)(3,9);(3,9);red circle;false;true;0.55;6.119;16.514;7.042999999999999;false
pre-post;2021-05-24;17:55:39;expt;10;6;do;N/A;(4,1)(4,2)(4,3);(4,3);red square;N/A;(4,7);noChange;true;false;0.80;7.108;2.0070000000000006;8.251999999999999;false
pre-post;2021-05-24;17:55:39;expt;11;26;say;circle;N/A;(4,0);noChange;(4,8)(3,8)(2,8)(1,8);(1,8);red circle;false;true;1.00;3.084;3.858;3.9019999999999997;false
pre-post;2021-05-24;17:55:39;expt;12;21;do;N/A;(4,1)(4,2)(3,2)(2,2)(2,3)(2,4)(2,5)(2,6)(2,7)(2,8);(2,8);red square;N/A;(4,7);noChange;true;false;0.90;6.186;5.525;6.982999999999999;false
pre-post;2021-05-24;17:55:39;expt;13;19;do;N/A;(3,0)(2,0)(2,1)(2,2)(2,3)(2,4)(2,5)(2,6)(2,7)(2,8)(2,9)(3,9)(4,9)(5,9)(6,9)(7,9)(8,9);(8,9);red square;N/A;(4,7);noChange;true;false;0.45;15.916;9.046;17.693;false
pre-post;2021-05-24;17:55:39;expt;14;12;say;purple;N/A;(4,0);noChange;(3,7)(2,7)(1,7)(1,8)(1,9);(1,9);purple triangle;false;true;0.60;13.423;7.7780000000000005;59.201;false
pre-post;2021-05-24;17:55:39;expt;15;11;say;square;N/A;(4,0);noChange;(5,7)(6,7)(6,8)(6,9);(6,9);green square;false;true;0.80;18.75;2.9909999999999997;19.663;false
pre-post;2021-05-24;17:55:39;expt;16;33;say;triangle;N/A;(4,0);noChange;(3,7)(3,6);(3,6);purple triangle;false;true;1.10;5.905;6.607;7.082999999999999;false
pre-post;2021-05-24;17:55:39;expt;17;31;say;circle;N/A;(4,0);noChange;(4,6);(4,6);red circle;false;true;1.45;3.474;1.3629999999999995;4.406000000000001;false
pre-post;2021-05-24;17:55:39;expt;18;3;say;square;N/A;(4,0);noChange;(4,6)(4,5)(4,4)(4,3)(5,3)(6,3);(6,3);purple square;false;true;1.55;2.575;5.470999999999999;3.5280000000000014;false
pre-post;2021-05-24;17:55:39;expt;19;27;do;N/A;(3,0)(2,0)(1,0)(1,1)(1,2)(1,3)(1,4)(1,5)(1,6)(1,7)(1,8);(1,8);red circle;N/A;(4,7);noChange;true;false;1.40;10.1;6.031000000000001;11.877;false
pre-post;2021-05-24;17:55:39;expt;20;18;say;square;N/A;(4,0);noChange;(4,8)(4,9)(5,9)(6,9)(7,9)(8,9);(8,9);red square;false;true;1.50;2.632;4.513999999999999;3.575000000000001;false
pre-post;2021-05-24;17:55:39;expt;21;9;say;square;N/A;(4,0);noChange;(4,6)(4,5)(4,4)(4,3);(4,3);green square;false;false;1.30;12.53;3.9040000000000017;13.261999999999999;false
pre-post;2021-05-24;17:55:39;expt;22;36;say;circle;N/A;(4,0);noChange;(5,7)(6,7)(6,8);(6,8);red circle;false;true;1.55;3.227;5.712;3.939;false
pre-post;2021-05-24;17:55:39;expt;23;13;say;purple;N/A;(4,0);noChange;(5,7)(5,6)(5,5)(5,4)(5,3);(5,3);purple circle;false;false;1.30;5.724;12.776;6.4929999999999986;false
pre-post;2021-05-24;17:55:39;expt;24;25;say;square;N/A;(4,0);noChange;(4,6)(4,5)(4,4)(4,3)(5,3);(5,3);green square;false;false;1.05;2.576;3.496;3.4890000000000003;false
pre-post;2021-05-24;17:55:39;expt;25;15;say;triangle;N/A;(4,0);noChange;(5,7)(6,7)(7,7)(7,6)(7,5)(7,4)(7,3);(7,3);green triangle;false;false;0.70;2.879;4.159000000000001;3.805999999999999;false
pre-post;2021-05-24;17:55:39;expt;26;2;do;N/A;(4,1)(4,2)(4,3)(5,3)(6,3);(6,3);purple square;N/A;(4,7);noChange;true;false;0.85;3.012;3.012;3.7020000000000004;false
pre-post;2021-05-24;17:55:39;expt;27;16;say;square;N/A;(4,0);noChange;(5,7)(6,7);(6,7);green square;false;true;1.15;4.814;3.446999999999999;5.5070000000000014;false
pre-post;2021-05-24;17:55:39;expt;28;7;say;square;N/A;(4,0);noChange;(4,6)(4,5)(4,4)(4,3);(4,3);red square;false;true;1.35;3.802;2.6670000000000003;4.916;false
pre-post;2021-05-24;17:55:39;expt;29;0;do;N/A;(4,1)(4,2)(4,3);(4,3);purple circle;N/A;(4,7);noChange;true;false;1.60;3.835;2.008;4.796;false
pre-post;2021-05-24;17:55:39;expt;30;32;say;purple;N/A;(4,0);noChange;(4,6)(3,6);(3,6);purple triangle;false;true;1.90;6.074;3.3230000000000004;6.948;false
pre-post;2021-05-24;17:55:39;expt;31;14;say;triangle;N/A;(4,0);noChange;(4,8)(4,9)(5,9)(6,9)(7,9);(7,9);red triangle;false;true;2.05;4.105;4.193999999999999;4.873000000000001;false
pre-post;2021-05-24;17:55:39;expt;32;8;say;square;N/A;(4,0);noChange;(5,7)(6,7)(7,7)(8,7)(8,6);(8,6);purple square;false;true;2.20;3.982;3.043;4.82;false
